141 2
 0.0000000  0.0112100
 0.9813090  0.0113800
 1.9766170  0.0114800
 2.9813690  0.0113600
 3.9867130  0.0114300
 4.9908110  0.0114600
 5.9915730  0.0113800
 6.9669890  0.0117300
 7.9711030  0.0118300
 8.9714680  0.0118100
 9.9482670  0.0119500
10.9360070  0.0119600
11.9385410  0.0119500
12.9403850  0.0121100
13.9413170  0.0120600
14.9364210  0.0119800
15.9398800  0.0122700
16.9407860  0.0122700
17.9371460  0.0123100
18.9204000  0.0124300
19.9104470  0.0123600
20.9113580  0.0124200
21.9108260  0.0125800
22.9068930  0.0125100
23.9090990  0.0125600
24.9117410  0.0126700
25.9108200  0.0125500
26.9059770  0.0126300
27.8906160  0.0128600
28.8780120  0.0127000
29.8807110  0.0128600
30.8800450  0.0128800
31.8766380  0.0128600
32.8786680  0.0130500
33.8809940  0.0130100
34.8805330  0.0129600
35.8766080  0.0130800
36.8609720  0.0131300
37.8607810  0.0132500
38.8568740  0.0133300
39.8604480  0.0131800
40.8608930  0.0133100
41.8604020  0.0133200
42.8567740  0.0133100
43.8455980  0.0134500
44.8465410  0.0133000
45.8309470  0.0133100
46.8305210  0.0135600
47.8265300  0.0135100
48.8301080  0.0136200
49.8309790  0.0136700
50.8258820  0.0136100
51.8297350  0.0138100
52.8307890  0.0137100
53.8306410  0.0138300
54.8268970  0.0140000
55.8303540  0.0139600
56.8306180  0.0140700
57.8304340  0.0140600
58.8255890  0.0140100
59.8291100  0.0141500
60.8344060  0.0145500
61.8308400  0.0154600
62.8258530  0.0164600
63.8295550  0.0173100
64.8307020  0.0182500
65.8266780  0.0190600
66.8288670  0.0197700
67.8100770  0.0207300
68.8108980  0.0215100
69.8061290  0.0223700
70.7906650  0.0231500
71.7791640  0.0239600
72.7800260  0.0249200
73.7807200  0.0256800
74.7767700  0.0264700
75.7801960  0.0273600
76.7799520  0.0280500
77.7760190  0.0289200
78.7784280  0.0298100
79.7609050  0.0298800
80.7604870  0.0299800
81.7557080  0.0298700
82.7401020  0.0299500
83.7293200  0.0300100
84.7300490  0.0298800
85.7265160  0.0299200
86.7284300  0.0299500
87.7307400  0.0299200
88.7299460  0.0301300
89.7261350  0.0301100
90.7283860  0.0301000
91.7104860  0.0303100
92.7062740  0.0302200
93.7102930  0.0303200
94.7105660  0.0304200
95.7096240  0.0303600
96.7049840  0.0304800
97.7094490  0.0304200
98.7104640  0.0305100
99.7100910  0.0306800
100.7062040  0.0306300
101.7083600  0.0307000
102.7106410  0.0307600
103.7095980  0.0307300
104.7061250  0.0309200
105.7096860  0.0308200
106.7101600  0.0308800
107.7095690  0.0311100
108.7061240  0.0311100
109.7082400  0.0312600
110.6961270  0.0311700
111.6990920  0.0312000
112.7001770  0.0314700
113.6953540  0.0314100
114.7000070  0.0314300
115.6996030  0.0315700
116.6963500  0.0314500
117.6982360  0.0315700
118.7004290  0.0316300
119.7000480  0.0316100
120.6961440  0.0318500
121.6982790  0.0318800
122.7008140  0.0320000
123.6998420  0.0321500
124.6962320  0.0320300
125.6986600  0.0322300
126.6993900  0.0321700
127.6960100  0.0321200
128.6990190  0.0323600
129.6793740  0.0322800
130.6752570  0.0323100
131.6778560  0.0324100
132.6597390  0.0324700
133.6560720  0.0326700
134.6584250  0.0327200
135.6603220  0.0327200
136.6597230  0.0329000
137.6561710  0.0327800
138.6592870  0.0329300
139.6603390  0.0330000
Filename given when saved in H2ORUN= C:\Users\Calorimetry\Desktop\Plastic vessel\Unit 6\parylene N ves 5A may 15\6fff\1
Date of measurement= Monday, May 15, 2023
Time of measurement= 20:30
Predrift time (s)=  60.00
Dissipation time (s)=  20.00
Afterdrift time (s)=  60.00
Twater(K)= 277.1662
Precision resistor in addition to decade(OHM)=    0.00
Upstream Monitor(or time)= 4.000000000e+002
Downstream Monitor(or 0)= 4.000000000e+002
Decade box setting(OHM)= 19324.00
