151 2
 0.0000000 -0.0117300
 1.0002870 -0.0116300
 1.9894840 -0.0114600
 2.9844260 -0.0114300
 3.9806420 -0.0113700
 4.9638150 -0.0114300
 5.9644160 -0.0113300
 6.9637490 -0.0113200
 7.9393910 -0.0112000
 8.9344760 -0.0110700
 9.9304610 -0.0111200
10.9326810 -0.0112000
11.9336220 -0.0112500
12.9344910 -0.0112600
13.9294810 -0.0112600
14.9344490 -0.0113000
15.9348100 -0.0113200
16.9094080 -0.0113000
17.9037490 -0.0112000
18.9002820 -0.0111300
19.9027420 -0.0110100
20.9045160 -0.0109000
21.9038260 -0.0108800
22.8998630 -0.0108000
23.9032660 -0.0107600
24.9042560 -0.0106300
25.8839450 -0.0106500
26.8791680 -0.0106500
27.8829100 -0.0106300
28.8836320 -0.0106300
29.8944480 -0.0105700
30.8830380 -0.0106700
31.8835200 -0.0107100
32.8744260 -0.0106700
33.8744730 -0.0106500
34.8546290 -0.0107000
35.8497990 -0.0106500
36.8518590 -0.0106100
37.8541250 -0.0106300
38.8545080 -0.0105600
39.8495670 -0.0105000
40.8547150 -0.0103600
41.8547490 -0.0103100
42.8543870 -0.0102000
43.8507370 -0.0101700
44.8523900 -0.0100800
45.8546010 -0.0101200
46.8345630 -0.0101300
47.8308750 -0.0102000
48.8256860 -0.0103000
49.8201830 -0.0103200
50.8237490 -0.0006800
51.8110990  0.0086700
52.8147270  0.0125800
53.8214360  0.0141500
54.8246970  0.0147600
55.8048860  0.0150100
56.8009200  0.0151300
57.8031190  0.0152500
58.8041960  0.0153300
59.8050050  0.0154600
60.8008350  0.0155000
61.8045910  0.0154500
62.8047920  0.0154200
63.8043730  0.0153700
64.8007480  0.0153000
65.8029290  0.0153200
66.8051830  0.0153100
67.8047490  0.0153200
68.8008490  0.0152600
69.8030740  0.0154000
70.8055060  0.0154800
71.8042050  0.0156700
72.8007060  0.0157300
73.8043580  0.0158100
74.8046870  0.0158600
75.8040560  0.0159300
76.8002690  0.0159000
77.7833620  0.0158800
78.7705460  0.0158600
79.7740100  0.0158600
80.7746690  0.0158100
81.7707100  0.0158300
82.7740640  0.0159000
83.7747280  0.0159000
84.7741730  0.0159800
85.7706780  0.0160200
86.7548150  0.0160700
87.7542230  0.0160800
88.7495410  0.0161300
89.7339720  0.0161700
90.7230290  0.0163100
91.7251380  0.0163300
92.7245420  0.0163300
93.7203840  0.0163300
94.7225830  0.0162600
95.7247490  0.0162500
96.7242940  0.0162000
97.7203760  0.0162300
98.7037370  0.0161700
99.6897300  0.0161800
100.6933130  0.0114800
101.6939480 -0.0005300
102.6948670 -0.0057200
103.6898550 -0.0075700
104.6947490 -0.0083000
105.6942320 -0.0084800
106.6892750 -0.0085100
107.6735880 -0.0085800
108.6745130 -0.0085200
109.6691770 -0.0085600
110.6553550 -0.0084300
111.6410830 -0.0084200
112.6435560 -0.0083700
113.6443350 -0.0084500
114.6405730 -0.0084800
115.6427370 -0.0085200
116.6445210 -0.0086200
117.6439460 -0.0085500
118.6405530 -0.0084600
119.6247910 -0.0085000
120.6137050 -0.0085000
121.6146950 -0.0084600
122.6144530 -0.0084200
123.6092160 -0.0083800
124.6131350 -0.0083000
125.6139210 -0.0082000
126.6100520 -0.0081700
127.6122890 -0.0081100
128.5940160 -0.0080700
129.5827490 -0.0079700
130.5849360 -0.0079300
131.5840210 -0.0079000
132.5791380 -0.0078500
133.5843480 -0.0078200
134.5834470 -0.0078500
135.5799320 -0.0078700
136.5819440 -0.0078700
137.5635270 -0.0079600
138.5533560 -0.0079800
139.5542660 -0.0079700
140.5535500 -0.0080000
141.5496480 -0.0079600
142.5531120 -0.0080100
143.5539110 -0.0079600
144.5545050 -0.0079000
145.5491160 -0.0079300
146.5333060 -0.0078500
147.5220650 -0.0078500
148.5241650 -0.0077500
149.5243770 -0.0077500
Filename given when saved in H2ORUN= C:\Users\Calorimetry\Desktop\Plastic vessel\therm 1 and 5 NO ext\1
Date of measurement= Thursday, April 13, 2023
Time of measurement= 14:37
PreOHM time (s)=  50.00
OHM time (s)=  50.00
AfterOHM time (s)=  50.00
Twater(K)= 276.9938
Current decade box resistance= 19518.00
Precision resistor serial to decade=    0.00
